{
    "hookInstance": "test",
    "fhirServer": "http://localhost:8080/cqf-ruler-r4/fhir",
    "hook": "patient-view",
    "context": {
        "userId": "Practitioner/example",
        "patientId": "Patient/DrugAbuseQuestionsPatient"
    },
    "prefetch": {
        "item1": {
            "response": {
                "status": "200 OK"
            },
            "resource": {
                "resourceType": "Patient",
                "id": "DrugAbuseQuestionsPatient",
                "meta": {
                    "profile": [
                        "http://fhir.org/guides/nachc/hiv-cds/StructureDefinition/hiv-patient"
                    ]
                },
                "extension": [{
                        "url": "http://fhir.org/guides/nachc/hiv-cds/StructureDefinition/sexualorientation",
                        "extension": [{
                            "url": "Sexual Orientation",
                            "valueCodeableConcept": {
                                "coding": [{
                                        "system": "http://fhir.org/guides/nachc/hiv-cds/CodeSystem/hiv-custom",
                                        "code": "NACHC.A0.DE49",
                                        "display": "Lesbian, gay or homosexual"
                                    },
                                    {
                                        "system": "http://snomed.info/sct",
                                        "code": "38628009",
                                        "display": "Lesbian, gay or homosexual"
                                    }
                                ]
                            }
                        }]
                    },
                    {
                        "url": "http://fhir.org/guides/nachc/hiv-cds/StructureDefinition/genderidentity",
                        "extension": [{
                            "url": "Gender Identity",
                            "valueCodeableConcept": {
                                "coding": [{
                                        "system": "http://fhir.org/guides/nachc/hiv-cds/CodeSystem/hiv-custom",
                                        "code": "NACHC.A0.DE57",
                                        "display": "Female"
                                    },
                                    {
                                        "system": "http://snomed.info/sct",
                                        "code": "446141000124107",
                                        "display": "Female"
                                    }
                                ]
                            }
                        }]
                    }
                ],
                "identifier": [{
                    "use": "usual",
                    "type": {
                        "coding": [{
                            "system": "http://terminology.hl7.org/CodeSystem/v2-0203",
                            "code": "MR"
                        }]
                    },
                    "system": "urn:oid:1.2.36.146.595.217.0.1",
                    "value": "12345",
                    "period": {
                        "start": "2001-05-06"
                    },
                    "assigner": {
                        "display": "Acme Healthcare"
                    }
                }],
                "active": true,
                "name": [{
                    "use": "official",
                    "family": "Madelyn",
                    "given": [
                        "Ashley"
                    ]
                }],
                "gender": "female",
                "birthDate": "2002-02-02",
                "deceasedBoolean": false,
                "generalPractitioner": [{
                    "reference": "PractitionerRole/hiv-practitionerrole-example"
                }]
            }
        },
        "item2": {
            "response": {
                "status": "200 OK"
            },
            "resource": {
                "resourceType": "Encounter",
                "id": "DrugAbuseQuestionsPatient-encounter-1",
                "meta": {
                    "profile": [
                        "http://fhir.org/guides/nachc/hiv-cds/StructureDefinition/patient-encounter"
                    ]
                },
                "status": "in-progress",
                "class": {
                    "system": "http://terminology.hl7.org/CodeSystem/v3-ActCode",
                    "code": "AMB",
                    "display": "ambulatory"
                },
                "type": [{
                    "coding": [{
                            "system": "http://fhir.org/guides/nachc/hiv-cds/CodeSystem/hiv-custom",
                            "code": "NACHC.A0.DE2",
                            "display": "Office or other outpatient visit for the evaluation and management of a new patient, which requires a medically appropriate history and/or examination and straightforward medical decision making. When using time for code selection, 15-29 minutes of total time is spent on the date of the encounter."
                        },
                        {
                            "system": "http://www.ama-assn.org/go/cpt",
                            "code": "99202",
                            "display": "Office or other outpatient visit for the evaluation and management of a new patient, which requires a medically appropriate history and/or examination and straightforward medical decision making. When using time for code selection, 15-29 minutes of total time is spent on the date of the encounter."
                        }
                    ]
                }],
                "subject": {
                    "reference": "Patient/DrugAbuseQuestionsPatient"
                },
                "period": {
                    "start": "2021-05-10T14:00:00-07:00",
                    "end": "2021-05-10T15:20:00-07:00"
                }
            }
        },
        "item3": {
            "response": {
                "status": "200 OK"
            },
            "resource": {
                "resourceType": "Observation",
                "id": "DrugAbuseQuestionsPatient-observation-drug-abuse-question-3",
                "meta": {
                    "profile": [
                        "http://fhir.org/guides/nachc/hiv-cds/StructureDefinition/hiv-test"
                    ]
                },
                "status": "final",
                "code": {
                    "coding": [{
                        "system": "http://fhir.org/guides/nachc/hiv-cds/CodeSystem/hiv-custom",
                        "code": "NACHC.H2.DE6",
                        "display": "Are you always able to stop using drugs when you want to"
                    }]
                },
                "subject": {
                    "reference": "Patient/DrugAbuseQuestionsPatient"
                },
                "encounter": {
                    "reference": "Encounter/DrugAbuseQuestionsPatient-encounter-1"
                },
                "effectiveDateTime": "2021-03-08T10:00:00-07:00",
                "performer": [{
                    "reference": "PractitionerRole/hiv-practitionerrole-example"
                }],
                "valueBoolean": true
            }
        },
        "item4": {
            "response": {
                "status": "200 OK"
            },
            "resource": {
                "resourceType": "Observation",
                "id": "DrugAbuseQuestionsPatient-observation-drug-abuse-question-2",
                "meta": {
                    "profile": [
                        "http://fhir.org/guides/nachc/hiv-cds/StructureDefinition/hiv-test"
                    ]
                },
                "status": "final",
                "code": {
                    "coding": [{
                        "system": "http://fhir.org/guides/nachc/hiv-cds/CodeSystem/hiv-custom",
                        "code": "NACHC.H2.DE4",
                        "display": "Do you use more than one drug at a time"
                    }]
                },
                "subject": {
                    "reference": "Patient/DrugAbuseQuestionsPatient"
                },
                "encounter": {
                    "reference": "Encounter/DrugAbuseQuestionsPatient-encounter-1"
                },
                "effectiveDateTime": "2021-03-08T10:00:00-07:00",
                "performer": [{
                    "reference": "PractitionerRole/hiv-practitionerrole-example"
                }],
                "valueString": "Yes"
            }
        },
        "item5": {
            "response": {
                "status": "200 OK"
            },
            "resource": {
                "resourceType": "Observation",
                "id": "DrugAbuseQuestionsPatient-observation-drug-abuse-question-1",
                "meta": {
                    "profile": [
                        "http://fhir.org/guides/nachc/hiv-cds/StructureDefinition/hiv-test"
                    ]
                },
                "status": "final",
                "code": {
                    "coding": [{
                        "system": "http://fhir.org/guides/nachc/hiv-cds/CodeSystem/hiv-custom",
                        "code": "NACHC.H2.DE2",
                        "display": "Have you used drugs other than those required for medical reasons"
                    }]
                },
                "subject": {
                    "reference": "Patient/DrugAbuseQuestionsPatient"
                },
                "encounter": {
                    "reference": "Encounter/DrugAbuseQuestionsPatient-encounter-1"
                },
                "effectiveDateTime": "2021-03-08T10:00:00-07:00",
                "performer": [{
                    "reference": "PractitionerRole/hiv-practitionerrole-example"
                }],
                "valueBoolean": true
            }
        },
        "item6": {
            "response": {
                "status": "200 OK"
            },
            "resource": {
                "resourceType": "Observation",
                "id": "DrugAbuseQuestionsPatient-observation-screening-1",
                "meta": {
                    "profile": [
                        "http://fhir.org/guides/nachc/hiv-cds/StructureDefinition/hiv-test"
                    ]
                },
                "status": "final",
                "code": {
                    "coding": [{
                        "system": "http://fhir.org/guides/nachc/hiv-cds/CodeSystem/hiv-custom",
                        "code": "NACHC.A2.DE1",
                        "display": "HIV Test"
                    }]
                },
                "subject": {
                    "reference": "Patient/DrugAbuseQuestionsPatient"
                },
                "encounter": {
                    "reference": "Encounter/DrugAbuseQuestionsPatient-encounter-1"
                },
                "effectiveDateTime": "2021-03-08T10:00:00-07:00",
                "performer": [{
                    "reference": "PractitionerRole/hiv-practitionerrole-example"
                }],
                "valueCodeableConcept": {
                    "coding": [{
                            "system": "http://fhir.org/guides/nachc/hiv-cds/CodeSystem/hiv-custom",
                            "code": "NACHC.A2.DE215",
                            "display": "HIV proviral DNA [Presence] in Blood by Probe with amplification"
                        },
                        {
                            "system": "http://loinc.org",
                            "code": "2898779",
                            "display": "HIV proviral DNA [Presence] in Blood by Probe with amplification"
                        }
                    ]
                }
            }
        }
    }
}