{
  "resourceType": "Bundle",
  "id": "tests-HighRiskSTDPatient-bundle",
  "type": "transaction",
  "entry": [ {
    "resource": {
      "resourceType": "Encounter",
      "id": "HighRiskSTDPatient-encounter-1",
      "meta": {
        "profile": [ "http://fhir.org/guides/nachc/hiv-cds/StructureDefinition/patient-encounter" ]
      },
      "status": "in-progress",
      "class": {
        "system": "http://terminology.hl7.org/CodeSystem/v3-ActCode",
        "code": "AMB",
        "display": "ambulatory"
      },
      "type": [ {
        "coding": [ {
          "system": "http://fhir.org/guides/nachc/hiv-cds/CodeSystem/hiv-custom",
          "code": "NACHC.A0.DE2",
          "display": "Office or other outpatient visit for the evaluation and management of a new patient, which requires a medically appropriate history and/or examination and straightforward medical decision making. When using time for code selection, 15-29 minutes of total time is spent on the date of the encounter."
        }, {
          "system": "http://www.ama-assn.org/go/cpt",
          "code": "99202",
          "display": "Office or other outpatient visit for the evaluation and management of a new patient, which requires a medically appropriate history and/or examination and straightforward medical decision making. When using time for code selection, 15-29 minutes of total time is spent on the date of the encounter."
        } ]
      } ],
      "subject": {
        "reference": "Patient/HighRiskSTDPatient"
      },
      "period": {
        "start": "2021-07-08T10:00:00-07:00",
        "end": "2021-07-08T11:20:00-07:00"
      }
    },
    "request": {
      "method": "PUT",
      "url": "Encounter/HighRiskSTDPatient-encounter-1"
    }
  }, {
    "resource": {
      "resourceType": "Condition",
      "id": "HighRiskSTDPatient-condition-hcv-1",
      "meta": {
        "profile": [ "http://fhir.org/guides/nachc/hiv-cds/StructureDefinition/hepatitis-c-diagnosis" ]
      },
      "clinicalStatus": {
        "coding": [ {
          "system": "http://terminology.hl7.org/CodeSystem/condition-clinical",
          "version": "0.5.0",
          "code": "active",
          "display": "Active"
        } ]
      },
      "verificationStatus": {
        "coding": [ {
          "system": "http://terminology.hl7.org/CodeSystem/condition-ver-status",
          "version": "0.5.0",
          "code": "confirmed",
          "display": "Confirmed"
        } ]
      },
      "category": [ {
        "coding": [ {
          "system": "http://terminology.hl7.org/ValueSet/condition-category",
          "version": "0.5.0",
          "code": "encounter-diagnosis",
          "display": "Encounter Diagnosis"
        } ]
      } ],
      "code": {
        "coding": [ {
          "system": "http://fhir.org/guides/nachc/hiv-cds/CodeSystem/hiv-custom",
          "code": "NACHC.B1.DE83",
          "display": "Chronic lymphocytic cholangitis-cholangiohepatitis (disorder)"
        }, {
          "system": "http://snomed.info/sct",
          "code": "9843006",
          "display": "Chronic lymphocytic cholangitis-cholangiohepatitis (disorder)"
        } ]
      },
      "subject": {
        "reference": "Patient/HighRiskSTDPatient"
      },
      "onsetDateTime": "2020-07-10T14:00:00-07:00",
      "abatementDateTime": "2021-07-10T14:00:00-07:00"
    },
    "request": {
      "method": "PUT",
      "url": "Condition/HighRiskSTDPatient-condition-hcv-1"
    }
  }, {
    "resource": {
      "resourceType": "Patient",
      "id": "HighRiskSTDPatient",
      "meta": {
        "profile": [ "http://fhir.org/guides/nachc/hiv-cds/StructureDefinition/hiv-patient" ]
      },
      "extension": [ {
        "url": "http://fhir.org/guides/nachc/hiv-cds/StructureDefinition/sexualorientation",
        "extension": [ {
          "url": "Sexual Orientation",
          "valueCodeableConcept": {
            "coding": [ {
              "system": "http://fhir.org/guides/nachc/hiv-cds/CodeSystem/hiv-custom",
              "code": "NACHC.A0.DE50",
              "display": "Straight or heterosexual"
            }, {
              "system": "http://snomed.info/sct",
              "code": "20430005",
              "display": "Straight or heterosexual"
            } ]
          }
        } ]
      }, {
        "url": "http://fhir.org/guides/nachc/hiv-cds/StructureDefinition/genderidentity",
        "extension": [ {
          "url": "Gender Identity",
          "valueCodeableConcept": {
            "coding": [ {
              "system": "http://fhir.org/guides/nachc/hiv-cds/CodeSystem/hiv-custom",
              "code": "NACHC.A0.DE56",
              "display": "Male"
            }, {
              "system": "http://snomed.info/sct",
              "code": "446151000124109",
              "display": "Male"
            } ]
          }
        } ]
      } ],
      "identifier": [ {
        "use": "usual",
        "type": {
          "coding": [ {
            "system": "http://terminology.hl7.org/CodeSystem/v2-0203",
            "code": "MR"
          } ]
        },
        "system": "urn:oid:1.2.36.146.595.217.0.1",
        "value": "12345",
        "period": {
          "start": "2001-05-06"
        },
        "assigner": {
          "display": "Acme Healthcare"
        }
      } ],
      "active": true,
      "name": [ {
        "use": "official",
        "family": "Jones",
        "given": [ "John" ]
      } ],
      "gender": "male",
      "birthDate": "1982-08-08",
      "deceasedBoolean": false,
      "generalPractitioner": [ {
        "reference": "PractitionerRole/hiv-practitionerrole-example"
      } ]
    },
    "request": {
      "method": "PUT",
      "url": "Patient/HighRiskSTDPatient"
    }
  }, {
    "resource": {
      "resourceType": "Observation",
      "id": "HighRiskSTDPatient-observation-seeking-1",
      "meta": {
        "profile": [ "http://fhir.org/guides/nachc/hiv-cds/StructureDefinition/seeking-std-treatment" ]
      },
      "status": "preliminary",
      "code": {
        "coding": [ {
          "system": "http://fhir.org/guides/nachc/hiv-cds/CodeSystem/hiv-custom",
          "code": "NACHC.H1.DE9",
          "display": "Seeking STD Treatment"
        } ]
      },
      "subject": {
        "reference": "Patient/HighRiskSTDPatient"
      },
      "encounter": {
        "reference": "Encounter/HighRiskSTDPatient-encounter-1"
      },
      "effectiveDateTime": "2021-07-08T10:20:00-07:00",
      "valueBoolean": true
    },
    "request": {
      "method": "PUT",
      "url": "Observation/HighRiskSTDPatient-observation-seeking-1"
    }
  }, {
    "resource": {
      "resourceType": "Observation",
      "id": "HighRiskSTDPatient-observation-screening-1",
      "meta": {
        "profile": [ "http://fhir.org/guides/nachc/hiv-cds/StructureDefinition/hiv-test" ]
      },
      "status": "final",
      "code": {
        "coding": [ {
          "system": "http://fhir.org/guides/nachc/hiv-cds/CodeSystem/hiv-custom",
          "code": "NACHC.A2.DE1",
          "display": "HIV Test"
        } ]
      },
      "subject": {
        "reference": "Patient/HighRiskSTDPatient"
      },
      "encounter": {
        "reference": "Encounter/HighRiskSTDPatient-encounter-1"
      },
      "effectiveDateTime": "2021-03-08T10:00:00-07:00",
      "performer": [ {
        "reference": "PractitionerRole/hiv-practitionerrole-example"
      } ],
      "valueCodeableConcept": {
        "coding": [ {
          "system": "http://fhir.org/guides/nachc/hiv-cds/CodeSystem/hiv-custom",
          "code": "NACHC.A2.DE215",
          "display": "HIV proviral DNA [Presence] in Blood by Probe with amplification"
        }, {
          "system": "http://loinc.org",
          "code": "2898779",
          "display": "HIV proviral DNA [Presence] in Blood by Probe with amplification"
        } ]
      }
    },
    "request": {
      "method": "PUT",
      "url": "Observation/HighRiskSTDPatient-observation-screening-1"
    }
  } ]
}