{
  "resourceType": "Bundle",
  "id": "tests-HighRiskIDUPatient-bundle",
  "type": "transaction",
  "entry": [ {
    "resource": {
      "resourceType": "Encounter",
      "id": "HighRiskIDUPatient-encounter-1",
      "meta": {
        "profile": [ "http://fhir.org/guides/nachc/hiv-cds/StructureDefinition/patient-encounter" ]
      },
      "status": "in-progress",
      "class": {
        "system": "http://terminology.hl7.org/CodeSystem/v3-ActCode",
        "code": "AMB",
        "display": "ambulatory"
      },
      "type": [ {
        "coding": [ {
          "system": "http://fhir.org/guides/nachc/hiv-cds/CodeSystem/hiv-custom",
          "code": "NACHC.A0.DE2",
          "display": "Office or other outpatient visit for the evaluation and management of a new patient, which requires a medically appropriate history and/or examination and straightforward medical decision making. When using time for code selection, 15-29 minutes of total time is spent on the date of the encounter."
        }, {
          "system": "http://www.ama-assn.org/go/cpt",
          "code": "99202",
          "display": "Office or other outpatient visit for the evaluation and management of a new patient, which requires a medically appropriate history and/or examination and straightforward medical decision making. When using time for code selection, 15-29 minutes of total time is spent on the date of the encounter."
        } ]
      } ],
      "subject": {
        "reference": "Patient/HighRiskIDUPatient"
      },
      "period": {
        "start": "2021-07-08T08:00:00-07:00",
        "end": "2021-07-08T09:20:00-07:00"
      }
    },
    "request": {
      "method": "PUT",
      "url": "Encounter/HighRiskIDUPatient-encounter-1"
    }
  }, {
    "resource": {
      "resourceType": "Condition",
      "id": "HighRiskIDUPatient-condition-hcv-1",
      "meta": {
        "profile": [ "http://fhir.org/guides/nachc/hiv-cds/StructureDefinition/hepatitis-c-diagnosis" ]
      },
      "clinicalStatus": {
        "coding": [ {
          "system": "http://terminology.hl7.org/CodeSystem/condition-clinical",
          "version": "0.5.0",
          "code": "active",
          "display": "Active"
        } ]
      },
      "verificationStatus": {
        "coding": [ {
          "system": "http://terminology.hl7.org/CodeSystem/condition-ver-status",
          "version": "0.5.0",
          "code": "confirmed",
          "display": "Confirmed"
        } ]
      },
      "category": [ {
        "coding": [ {
          "system": "http://terminology.hl7.org/ValueSet/condition-category",
          "version": "0.5.0",
          "code": "encounter-diagnosis",
          "display": "Encounter Diagnosis"
        } ]
      } ],
      "code": {
        "coding": [ {
          "system": "http://fhir.org/guides/nachc/hiv-cds/CodeSystem/hiv-custom",
          "code": "NACHC.F1.DE16",
          "display": "Streptococcal sepsis"
        }, {
          "system": "http://hl7.org/fhir/sid/icd-10",
          "code": "A40",
          "display": "Streptococcal sepsis"
        } ]
      },
      "subject": {
        "reference": "Patient/HighRiskIDUPatient"
      },
      "onsetDateTime": "2018-07-10T14:00:00-07:00"
    },
    "request": {
      "method": "PUT",
      "url": "Condition/HighRiskIDUPatient-condition-hcv-1"
    }
  }, {
    "resource": {
      "resourceType": "Patient",
      "id": "HighRiskIDUPatient",
      "meta": {
        "profile": [ "http://fhir.org/guides/nachc/hiv-cds/StructureDefinition/hiv-patient" ]
      },
      "extension": [ {
        "url": "http://fhir.org/guides/nachc/hiv-cds/StructureDefinition/sexualorientation",
        "extension": [ {
          "url": "Sexual Orientation",
          "valueCodeableConcept": {
            "coding": [ {
              "system": "http://fhir.org/guides/nachc/hiv-cds/CodeSystem/hiv-custom",
              "code": "NACHC.A0.DE49",
              "display": "Lesbian, gay or homosexual"
            }, {
              "system": "http://snomed.info/sct",
              "code": "38628009",
              "display": "Lesbian, gay or homosexual"
            } ]
          }
        } ]
      }, {
        "url": "http://fhir.org/guides/nachc/hiv-cds/StructureDefinition/genderidentity",
        "extension": [ {
          "url": "Gender Identity",
          "valueCodeableConcept": {
            "coding": [ {
              "system": "http://fhir.org/guides/nachc/hiv-cds/CodeSystem/hiv-custom",
              "code": "NACHC.A0.DE57",
              "display": "Female"
            }, {
              "system": "http://snomed.info/sct",
              "code": "446141000124107",
              "display": "Female"
            } ]
          }
        } ]
      } ],
      "identifier": [ {
        "use": "usual",
        "type": {
          "coding": [ {
            "system": "http://terminology.hl7.org/CodeSystem/v2-0203",
            "code": "MR"
          } ]
        },
        "system": "urn:oid:1.2.36.146.595.217.0.1",
        "value": "12345",
        "period": {
          "start": "2001-05-06"
        },
        "assigner": {
          "display": "Acme Healthcare"
        }
      } ],
      "active": true,
      "name": [ {
        "use": "official",
        "family": "Madelyn",
        "given": [ "Ashley" ]
      } ],
      "gender": "female",
      "birthDate": "2002-02-02",
      "deceasedBoolean": false,
      "generalPractitioner": [ {
        "reference": "PractitionerRole/hiv-practitionerrole-example"
      } ]
    },
    "request": {
      "method": "PUT",
      "url": "Patient/HighRiskIDUPatient"
    }
  }, {
    "resource": {
      "resourceType": "Observation",
      "id": "HighRiskIDUPatient-observation-screening-1",
      "meta": {
        "profile": [ "http://fhir.org/guides/nachc/hiv-cds/StructureDefinition/hiv-test" ]
      },
      "status": "final",
      "code": {
        "coding": [ {
          "system": "http://fhir.org/guides/nachc/hiv-cds/CodeSystem/hiv-custom",
          "code": "NACHC.A2.DE1",
          "display": "HIV Test"
        } ]
      },
      "subject": {
        "reference": "Patient/HighRiskIDUPatient"
      },
      "encounter": {
        "reference": "Encounter/HighRiskIDUPatient-encounter-1"
      },
      "effectiveDateTime": "2021-03-08T10:00:00-07:00",
      "performer": [ {
        "reference": "PractitionerRole/hiv-practitionerrole-example"
      } ],
      "valueCodeableConcept": {
        "coding": [ {
          "system": "http://fhir.org/guides/nachc/hiv-cds/CodeSystem/hiv-custom",
          "code": "NACHC.A2.DE215",
          "display": "HIV proviral DNA [Presence] in Blood by Probe with amplification"
        }, {
          "system": "http://loinc.org",
          "code": "2898779",
          "display": "HIV proviral DNA [Presence] in Blood by Probe with amplification"
        } ]
      }
    },
    "request": {
      "method": "PUT",
      "url": "Observation/HighRiskIDUPatient-observation-screening-1"
    }
  } ]
}