{
  "resourceType": "Bundle",
  "id": "tests-MSMPatient-bundle",
  "type": "transaction",
  "entry": [ {
    "resource": {
      "resourceType": "Encounter",
      "id": "MSMPatient-encounter-1",
      "meta": {
        "profile": [ "http://fhir.org/guides/nachc/hiv-cds/StructureDefinition/patient-encounter" ]
      },
      "status": "in-progress",
      "class": {
        "system": "http://terminology.hl7.org/CodeSystem/v3-ActCode",
        "code": "AMB",
        "display": "ambulatory"
      },
      "type": [ {
        "coding": [ {
          "system": "http://fhir.org/guides/nachc/hiv-cds/CodeSystem/hiv-custom",
          "code": "NACHC.A0.DE2",
          "display": "Office or other outpatient visit for the evaluation and management of a new patient, which requires a medically appropriate history and/or examination and straightforward medical decision making. When using time for code selection, 15-29 minutes of total time is spent on the date of the encounter."
        }, {
          "system": "http://www.ama-assn.org/go/cpt",
          "code": "99202",
          "display": "Office or other outpatient visit for the evaluation and management of a new patient, which requires a medically appropriate history and/or examination and straightforward medical decision making. When using time for code selection, 15-29 minutes of total time is spent on the date of the encounter."
        } ]
      } ],
      "subject": {
        "reference": "Patient/MSMPatient"
      },
      "period": {
        "start": "2021-07-31T10:00:00-07:00",
        "end": "2021-07-31T11:20:00-07:00"
      }
    },
    "request": {
      "method": "PUT",
      "url": "Encounter/MSMPatient-encounter-1"
    }
  }, {
    "resource": {
      "resourceType": "Patient",
      "id": "MSMPatient",
      "meta": {
        "profile": [ "http://fhir.org/guides/nachc/hiv-cds/StructureDefinition/hiv-patient" ]
      },
      "extension": [ {
        "url": "http://fhir.org/guides/nachc/hiv-cds/StructureDefinition/sexualorientation",
        "extension": [ {
          "url": "Sexual Orientation",
          "valueCodeableConcept": {
            "coding": [ {
              "system": "http://fhir.org/guides/nachc/hiv-cds/CodeSystem/hiv-custom",
              "code": "NACHC.A0.DE51",
              "display": "Bisexual"
            }, {
              "system": "http://snomed.info/sct",
              "code": "42035005",
              "display": "Bisexual"
            } ]
          }
        } ]
      }, {
        "url": "http://fhir.org/guides/nachc/hiv-cds/StructureDefinition/genderidentity",
        "extension": [ {
          "url": "Gender Identity",
          "valueCodeableConcept": {
            "coding": [ {
              "system": "http://fhir.org/guides/nachc/hiv-cds/CodeSystem/hiv-custom",
              "code": "NACHC.A0.DE59",
              "display": "Male-to-Female (MTF)/Transgender Female/Trans Woman"
            }, {
              "system": "http://snomed.info/sct",
              "code": "407376001",
              "display": "Male-to-Female (MTF)/Transgender Female/Trans Woman"
            } ]
          }
        } ]
      } ],
      "identifier": [ {
        "use": "usual",
        "type": {
          "coding": [ {
            "system": "http://terminology.hl7.org/CodeSystem/v2-0203",
            "code": "MR"
          } ]
        },
        "system": "urn:oid:1.2.36.146.595.217.0.1",
        "value": "12345",
        "period": {
          "start": "2001-05-06"
        },
        "assigner": {
          "display": "Acme Healthcare"
        }
      } ],
      "active": true,
      "name": [ {
        "use": "official",
        "family": "Kotic",
        "given": [ "Joe" ]
      } ],
      "gender": "male",
      "birthDate": "1972-06-09",
      "deceasedBoolean": false,
      "generalPractitioner": [ {
        "reference": "PractitionerRole/hiv-practitionerrole-example"
      } ]
    },
    "request": {
      "method": "PUT",
      "url": "Patient/MSMPatient"
    }
  }, {
    "resource": {
      "resourceType": "Observation",
      "id": "MSMPatient-observation-msm-2",
      "meta": {
        "profile": [ "http://fhir.org/guides/nachc/hiv-cds/StructureDefinition/sexual-activity-men" ]
      },
      "status": "preliminary",
      "code": {
        "coding": [ {
          "system": "http://fhir.org/guides/nachc/hiv-cds/CodeSystem/hiv-custom",
          "code": "NACHC.H1.DE13",
          "display": "Sexual Activity - Men"
        } ]
      },
      "subject": {
        "reference": "Patient/MSMPatient"
      },
      "encounter": {
        "reference": "Encounter/MSMPatient-encounter-1"
      },
      "effectiveDateTime": "2021-07-31T10:30:00-07:00",
      "valueBoolean": true
    },
    "request": {
      "method": "PUT",
      "url": "Observation/MSMPatient-observation-msm-2"
    }
  }, {
    "resource": {
      "resourceType": "Observation",
      "id": "MSMPatient-observation-screening-1",
      "meta": {
        "profile": [ "http://fhir.org/guides/nachc/hiv-cds/StructureDefinition/hiv-test" ]
      },
      "status": "final",
      "code": {
        "coding": [ {
          "system": "http://fhir.org/guides/nachc/hiv-cds/CodeSystem/hiv-custom",
          "code": "NACHC.A2.DE1",
          "display": "HIV Test"
        } ]
      },
      "subject": {
        "reference": "Patient/MSMPatient"
      },
      "effectiveDateTime": "2020-06-08T10:20:00-07:00",
      "valueCodeableConcept": {
        "coding": [ {
          "system": "http://fhir.org/guides/nachc/hiv-cds/CodeSystem/hiv-custom",
          "code": "NACHC.A2.DE200",
          "display": "HIV 1 RNA [Presence] in Serum or Plasma by NAA with probe detection"
        }, {
          "system": "http://loinc.org",
          "code": "25835-0",
          "display": "HIV 1 RNA [Presence] in Serum or Plasma by NAA with probe detection"
        } ]
      }
    },
    "request": {
      "method": "PUT",
      "url": "Observation/MSMPatient-observation-screening-1"
    }
  }, {
    "resource": {
      "resourceType": "Observation",
      "id": "MSMPatient-observation-multiple-3",
      "meta": {
        "profile": [ "http://fhir.org/guides/nachc/hiv-cds/StructureDefinition/sexual-activity-partners-number-of-partners" ]
      },
      "status": "preliminary",
      "code": {
        "coding": [ {
          "system": "http://fhir.org/guides/nachc/hiv-cds/CodeSystem/hiv-custom",
          "code": "NACHC.H1.DE18",
          "display": "Sexual Activity - Partners Number of Partners"
        } ]
      },
      "subject": {
        "reference": "Patient/MSMPatient"
      },
      "encounter": {
        "reference": "Encounter/MSMPatient-encounter-1"
      },
      "effectiveDateTime": "2021-07-31T10:30:00-07:00",
      "valueBoolean": true
    },
    "request": {
      "method": "PUT",
      "url": "Observation/MSMPatient-observation-multiple-3"
    }
  } ]
}