{
  "resourceType": "Bundle",
  "id": "Screening-bundle",
  "type": "transaction",
  "entry": [ {
    "resource": {
      "resourceType": "Encounter",
      "id": "MSMPatient-encounter-1",
      "meta": {
        "profile": [ "http://fhir.org/guides/nachc/hiv-cds/StructureDefinition/patient-encounter" ]
      },
      "status": "in-progress",
      "class": {
        "system": "http://terminology.hl7.org/CodeSystem/v3-ActCode",
        "code": "AMB",
        "display": "ambulatory"
      },
      "type": [ {
        "coding": [ {
          "system": "http://fhir.org/guides/nachc/hiv-cds/CodeSystem/hiv-custom",
          "code": "NACHC.A0.DE2",
          "display": "Office or other outpatient visit for the evaluation and management of a new patient, which requires a medically appropriate history and/or examination and straightforward medical decision making. When using time for code selection, 15-29 minutes of total time is spent on the date of the encounter."
        }, {
          "system": "http://www.ama-assn.org/go/cpt",
          "code": "99202",
          "display": "Office or other outpatient visit for the evaluation and management of a new patient, which requires a medically appropriate history and/or examination and straightforward medical decision making. When using time for code selection, 15-29 minutes of total time is spent on the date of the encounter."
        } ]
      } ],
      "subject": {
        "reference": "Patient/MSMPatient"
      },
      "period": {
        "start": "2021-07-31T10:00:00-07:00",
        "end": "2021-07-31T11:20:00-07:00"
      }
    },
    "request": {
      "method": "PUT",
      "url": "Encounter/MSMPatient-encounter-1"
    }
  }, {
    "resource": {
      "resourceType": "Observation",
      "id": "MSMPatient-observation-msm-2",
      "meta": {
        "profile": [ "http://fhir.org/guides/nachc/hiv-cds/StructureDefinition/sexual-activity-men" ]
      },
      "status": "preliminary",
      "code": {
        "coding": [ {
          "system": "http://fhir.org/guides/nachc/hiv-cds/CodeSystem/hiv-custom",
          "code": "NACHC.H1.DE13",
          "display": "Sexual Activity - Men"
        } ]
      },
      "subject": {
        "reference": "Patient/MSMPatient"
      },
      "encounter": {
        "reference": "Encounter/MSMPatient-encounter-1"
      },
      "effectiveDateTime": "2021-07-31T10:30:00-07:00",
      "valueBoolean": true
    },
    "request": {
      "method": "PUT",
      "url": "Observation/MSMPatient-observation-msm-2"
    }
  }, {
    "resource": {
      "resourceType": "Encounter",
      "id": "DrugAbuseQuestionsPatient-encounter-1",
      "meta": {
        "profile": [ "http://fhir.org/guides/nachc/hiv-cds/StructureDefinition/patient-encounter" ]
      },
      "status": "in-progress",
      "class": {
        "system": "http://terminology.hl7.org/CodeSystem/v3-ActCode",
        "code": "AMB",
        "display": "ambulatory"
      },
      "type": [ {
        "coding": [ {
          "system": "http://fhir.org/guides/nachc/hiv-cds/CodeSystem/hiv-custom",
          "code": "NACHC.A0.DE2",
          "display": "Office or other outpatient visit for the evaluation and management of a new patient, which requires a medically appropriate history and/or examination and straightforward medical decision making. When using time for code selection, 15-29 minutes of total time is spent on the date of the encounter."
        }, {
          "system": "http://www.ama-assn.org/go/cpt",
          "code": "99202",
          "display": "Office or other outpatient visit for the evaluation and management of a new patient, which requires a medically appropriate history and/or examination and straightforward medical decision making. When using time for code selection, 15-29 minutes of total time is spent on the date of the encounter."
        } ]
      } ],
      "subject": {
        "reference": "Patient/DrugAbuseQuestionsPatient"
      },
      "period": {
        "start": "2021-05-10T14:00:00-07:00",
        "end": "2021-05-10T15:20:00-07:00"
      }
    },
    "request": {
      "method": "PUT",
      "url": "Encounter/DrugAbuseQuestionsPatient-encounter-1"
    }
  }, {
    "resource": {
      "resourceType": "Observation",
      "id": "DrugAbuseQuestionsPatient-observation-drug-abuse-question-3",
      "meta": {
        "profile": [ "http://fhir.org/guides/nachc/hiv-cds/StructureDefinition/hiv-test" ]
      },
      "status": "final",
      "code": {
        "coding": [ {
          "system": "http://fhir.org/guides/nachc/hiv-cds/CodeSystem/hiv-custom",
          "code": "NACHC.H2.DE6",
          "display": "Are you always able to stop using drugs when you want to"
        } ]
      },
      "subject": {
        "reference": "Patient/DrugAbuseQuestionsPatient"
      },
      "encounter": {
        "reference": "Encounter/DrugAbuseQuestionsPatient-encounter-1"
      },
      "effectiveDateTime": "2021-03-08T10:00:00-07:00",
      "performer": [ {
        "reference": "PractitionerRole/hiv-practitionerrole-example"
      } ],
      "valueBoolean": true
    },
    "request": {
      "method": "PUT",
      "url": "Observation/DrugAbuseQuestionsPatient-observation-drug-abuse-question-3"
    }
  }, {
    "resource": {
      "resourceType": "Observation",
      "id": "HighRiskPregnantPatient-observation-screening-1",
      "meta": {
        "profile": [ "http://fhir.org/guides/nachc/hiv-cds/StructureDefinition/hiv-test" ]
      },
      "status": "final",
      "code": {
        "coding": [ {
          "system": "http://fhir.org/guides/nachc/hiv-cds/CodeSystem/hiv-custom",
          "code": "NACHC.A2.DE1",
          "display": "HIV Test"
        } ]
      },
      "subject": {
        "reference": "Patient/HighRiskPregnantPatient"
      },
      "effectiveDateTime": "2021-02-08T10:20:00-07:00",
      "valueCodeableConcept": {
        "coding": [ {
          "system": "http://fhir.org/guides/nachc/hiv-cds/CodeSystem/hiv-custom",
          "code": "NACHC.A2.DE215",
          "display": "HIV proviral DNA [Presence] in Blood by Probe with amplification"
        }, {
          "system": "http://loinc.org",
          "code": "2898779",
          "display": "HIV proviral DNA [Presence] in Blood by Probe with amplification"
        } ]
      }
    },
    "request": {
      "method": "PUT",
      "url": "Observation/HighRiskPregnantPatient-observation-screening-1"
    }
  }, {
    "resource": {
      "resourceType": "Encounter",
      "id": "InclusionPatient-encounter-1",
      "meta": {
        "profile": [ "http://fhir.org/guides/nachc/hiv-cds/StructureDefinition/patient-encounter" ]
      },
      "status": "in-progress",
      "class": {
        "system": "http://terminology.hl7.org/CodeSystem/v3-ActCode",
        "code": "AMB",
        "display": "ambulatory"
      },
      "type": [ {
        "coding": [ {
          "system": "http://fhir.org/guides/nachc/hiv-cds/CodeSystem/hiv-custom",
          "code": "NACHC.A0.DE2",
          "display": "Office or other outpatient visit for the evaluation and management of a new patient, which requires a medically appropriate history and/or examination and straightforward medical decision making. When using time for code selection, 15-29 minutes of total time is spent on the date of the encounter."
        }, {
          "system": "http://www.ama-assn.org/go/cpt",
          "code": "99202",
          "display": "Office or other outpatient visit for the evaluation and management of a new patient, which requires a medically appropriate history and/or examination and straightforward medical decision making. When using time for code selection, 15-29 minutes of total time is spent on the date of the encounter."
        } ]
      } ],
      "subject": {
        "reference": "Patient/InclusionPatient"
      },
      "period": {
        "start": "2021-05-10T12:00:00-07:00",
        "end": "2021-05-10T13:20:00-07:00"
      }
    },
    "request": {
      "method": "PUT",
      "url": "Encounter/InclusionPatient-encounter-1"
    }
  }, {
    "resource": {
      "resourceType": "Encounter",
      "id": "HighRiskPregnantPatient-encounter-1",
      "meta": {
        "profile": [ "http://fhir.org/guides/nachc/hiv-cds/StructureDefinition/third-trimester-encounters" ]
      },
      "status": "in-progress",
      "class": {
        "system": "http://terminology.hl7.org/CodeSystem/v3-ActCode",
        "code": "AMB",
        "display": "ambulatory"
      },
      "type": [ {
        "coding": [ {
          "system": "http://fhir.org/guides/nachc/hiv-cds/CodeSystem/hiv-custom",
          "code": "NACHC.F2.DE39",
          "display": "Encounter for supervision of normal first pregnancy, third trimester"
        }, {
          "system": "http://hl7.org/fhir/sid/icd-10",
          "code": "Z34.03",
          "display": "Encounter for supervision of normal first pregnancy, third trimester"
        } ]
      } ],
      "subject": {
        "reference": "Patient/HighRiskPregnantPatient"
      },
      "period": {
        "start": "2021-07-30T10:00:00-07:00",
        "end": "2021-07-30T11:20:00-07:00"
      }
    },
    "request": {
      "method": "PUT",
      "url": "Encounter/HighRiskPregnantPatient-encounter-1"
    }
  }, {
    "resource": {
      "resourceType": "PlanDefinition",
      "id": "plandefinition-Screening",
      "url": "http://fhir.org/guides/nachc/hiv-cds/PlanDefinition/plandefinition-Screening",
      "identifier": [ {
        "use": "official",
        "value": "nachc-Screening"
      } ],
      "version": "1.0.0",
      "name": "Screening",
      "title": "CDC HIV Screening",
      "type": {
        "coding": [ {
          "system": "http://terminology.hl7.org/CodeSystem/plan-definition-type",
          "code": "eca-rule",
          "display": "ECA Rule"
        } ]
      },
      "status": "draft",
      "date": "2021-07-31T00:00:00-08:00",
      "publisher": "National Association of Community Health Centers, Inc. (NACHC)",
      "description": "This PlanDefinition defines a a Clinical Decision Support CDC Recommendation for HIV Screening",
      "useContext": [ {
        "code": {
          "system": "http://terminology.hl7.org/CodeSystem/usage-context-type",
          "version": "4.0.1",
          "code": "focus",
          "display": "Clinical Focus"
        },
        "valueCodeableConcept": {
          "coding": [ {
            "system": "http://hl7.org/fhir/sid/icd-10-cm",
            "version": "2021",
            "code": "B20",
            "display": "Human immunodeficiency virus [HIV] disease"
          } ]
        }
      } ],
      "jurisdiction": [ {
        "coding": [ {
          "system": "http://hl7.org/fhir/ValueSet/iso3166-1-3",
          "version": "4.0.1",
          "code": "USA",
          "display": "United States of America"
        } ]
      } ],
      "purpose": "The purpose of this is to identify and build CDS support for HIV Screening.",
      "usage": "This is to be used in conjunction with a patient-facing FHIR application.",
      "copyright": "© Copyright National Association of Community Health Centers, Inc. (NACHC) 2021+.",
      "topic": [ {
        "coding": [ {
          "system": "http://terminology.hl7.org/CodeSystem/definition-topic",
          "version": "4.0.1",
          "code": "assessment",
          "display": "Assessment"
        } ],
        "text": "HIV Management"
      } ],
      "library": [ "http://fhir.org/guides/nachc/hiv-cds/Library/Screening" ],
      "action": [ {
        "title": "HIV Screening",
        "documentation": [ {
          "type": "documentation",
          "display": "Info for those with HIV",
          "url": "https://www.cdc.gov/hiv/guidelines/testing.html"
        } ],
        "trigger": [ {
          "type": "named-event",
          "name": "patient-view"
        } ],
        "condition": [ {
          "kind": "start",
          "expression": {
            "language": "text/cql",
            "expression": "'true'"
          }
        } ],
        "dynamicValue": [ {
          "path": "action.description",
          "expression": {
            "description": "Patient Name.",
            "language": "text/cql.identifier",
            "expression": "Patient Name"
          }
        }, {
          "path": "action.extension",
          "expression": {
            "language": "text/cql.identifier",
            "expression": "Info"
          }
        } ],
        "action": [ {
          "prefix": "Recommend HIV Screening Test.",
          "title": "Never Tested Recommendation",
          "description": "Perform CDC Recommendation for Never Tested Treatment if conditions are met.",
          "condition": [ {
            "kind": "applicability",
            "expression": {
              "description": "Determine if Patient is in msm population.",
              "language": "text/cql.identifier",
              "expression": "Never Tested Condition"
            }
          } ],
          "type": {
            "coding": [ {
              "system": "http://terminology.hl7.org/CodeSystem/plan-definition-type",
              "code": "create",
              "display": "Create"
            } ]
          },
          "selectionBehavior": "any",
          "definitionCanonical": "http://fhir.org/guides/nachc/hiv-cds/ActivityDefinition/activitydefinition-hiv-screening-request",
          "dynamicValue": [ {
            "path": "action.title",
            "expression": {
              "description": "Provides Recommendation for Never Tested screenings.",
              "language": "text/cql.identifier",
              "expression": "Never Tested Recommendation"
            }
          }, {
            "path": "action.description",
            "expression": {
              "description": "Provides Rationale for Never Tested screenings.",
              "language": "text/cql.identifier",
              "expression": "Never Tested Rationale"
            }
          }, {
            "path": "action.extension",
            "expression": {
              "language": "text/cql.identifier",
              "expression": "Never Tested Indicator"
            }
          }, {
            "path": "asNeededBoolean",
            "expression": {
              "language": "text/cql.identifier",
              "expression": "Never Tested Condition"
            }
          } ],
          "action": [ {
            "description": "Will perform HIV screening"
          }, {
            "description": "Will not perform HIV screening at this time - Snooze 1 month."
          }, {
            "description": "Will not perform HIV screening at this time - Snooze 12 months."
          }, {
            "description": "Will not perform HIV screening at this time - patient declined."
          } ]
        }, {
          "prefix": "Recommend HIV Screening Test.",
          "title": "MSM Recommendation",
          "description": "Perform CDC Recommendation for MSM if conditions are met for either 3 month or annual testing.",
          "condition": [ {
            "kind": "applicability",
            "expression": {
              "description": "Determine if Patient is in msm population.",
              "language": "text/cql.identifier",
              "expression": "MSM Condition"
            }
          } ],
          "type": {
            "coding": [ {
              "system": "http://terminology.hl7.org/CodeSystem/plan-definition-type",
              "code": "create",
              "display": "Create"
            } ]
          },
          "selectionBehavior": "any",
          "definitionCanonical": "http://fhir.org/guides/nachc/hiv-cds/ActivityDefinition/activitydefinition-hiv-screening-request",
          "dynamicValue": [ {
            "path": "action.title",
            "expression": {
              "description": "Provides Recommendation for screening.",
              "language": "text/cql.identifier",
              "expression": "MSM Recommendation"
            }
          }, {
            "path": "action.description",
            "expression": {
              "description": "Provides Rationale for screening.",
              "language": "text/cql.identifier",
              "expression": "MSM Rationale"
            }
          }, {
            "path": "action.extension",
            "expression": {
              "language": "text/cql.identifier",
              "expression": "MSM Indicator"
            }
          }, {
            "path": "asNeededBoolean",
            "expression": {
              "language": "text/cql.identifier",
              "expression": "MSM Condition"
            }
          } ],
          "action": [ {
            "description": "Will perform HIV screening"
          }, {
            "description": "Will not perform HIV screening at this time - Snooze 1 month."
          }, {
            "description": "Will not perform HIV screening at this time - Snooze 12 months."
          }, {
            "description": "Will not perform HIV screening at this time - patient declined."
          } ]
        }, {
          "prefix": "Recommend HIV Screening Test.",
          "title": "Pregnancy Recommendation",
          "description": "Perform CDC Recommendation for Pregnancy if conditions are met for first prenatal visit or third trimester high risk testing.",
          "condition": [ {
            "kind": "applicability",
            "expression": {
              "description": "Determine if Patient is in msm population.",
              "language": "text/cql.identifier",
              "expression": "Pregnant Condition"
            }
          } ],
          "type": {
            "coding": [ {
              "system": "http://terminology.hl7.org/CodeSystem/plan-definition-type",
              "code": "create",
              "display": "Create"
            } ]
          },
          "selectionBehavior": "any",
          "definitionCanonical": "http://fhir.org/guides/nachc/hiv-cds/ActivityDefinition/activitydefinition-hiv-screening-request",
          "dynamicValue": [ {
            "path": "action.title",
            "expression": {
              "description": "Provides Recommendation for Pregnancy screenings.",
              "language": "text/cql.identifier",
              "expression": "Pregnant Recommendation"
            }
          }, {
            "path": "action.description",
            "expression": {
              "description": "Provides Rationale for Pregnancy screenings.",
              "language": "text/cql.identifier",
              "expression": "Pregnant Rationale"
            }
          }, {
            "path": "action.extension",
            "expression": {
              "language": "text/cql.identifier",
              "expression": "Pregnant Indicator"
            }
          }, {
            "path": "asNeededBoolean",
            "expression": {
              "language": "text/cql.identifier",
              "expression": "Pregnant Condition"
            }
          } ],
          "action": [ {
            "description": "Will perform HIV screening"
          }, {
            "description": "Will not perform HIV screening at this time - Snooze 1 month."
          }, {
            "description": "Will not perform HIV screening at this time - Snooze 12 months."
          }, {
            "description": "Will not perform HIV screening at this time - patient declined."
          } ]
        }, {
          "prefix": "Recommend HIV Screening Test.",
          "title": "Seeking Treatment Recommendation",
          "description": "Perform CDC Recommendation for Seeking STD Treatment if conditions are met.",
          "condition": [ {
            "kind": "applicability",
            "expression": {
              "description": "Determine if Patient is in msm population.",
              "language": "text/cql.identifier",
              "expression": "Seeking STD Treatment Condition"
            }
          } ],
          "type": {
            "coding": [ {
              "system": "http://terminology.hl7.org/CodeSystem/plan-definition-type",
              "code": "create",
              "display": "Create"
            } ]
          },
          "selectionBehavior": "any",
          "definitionCanonical": "http://fhir.org/guides/nachc/hiv-cds/ActivityDefinition/activitydefinition-hiv-screening-request",
          "dynamicValue": [ {
            "path": "action.title",
            "expression": {
              "description": "Provides Recommendation for Seeking STD Treatment screenings.",
              "language": "text/cql.identifier",
              "expression": "Seeking STD Treatment Recommendation"
            }
          }, {
            "path": "action.description",
            "expression": {
              "description": "Provides Rationale for Seeking STD Treatment screenings.",
              "language": "text/cql.identifier",
              "expression": "Seeking STD Treatment Rationale"
            }
          }, {
            "path": "action.extension",
            "expression": {
              "language": "text/cql.identifier",
              "expression": "Seeking STD Treatment Indicator"
            }
          }, {
            "path": "asNeededBoolean",
            "expression": {
              "language": "text/cql.identifier",
              "expression": "Seeking STD Treatment Condition"
            }
          } ],
          "action": [ {
            "description": "Will perform HIV screening"
          }, {
            "description": "Will not perform HIV screening at this time - Snooze 1 month."
          }, {
            "description": "Will not perform HIV screening at this time - Snooze 12 months."
          }, {
            "description": "Will not perform HIV screening at this time - patient declined."
          } ]
        }, {
          "prefix": "Recommend HIV Screening Test.",
          "title": "Risk Level Recommendation",
          "description": "Determines type of recommendation based on risk level regarding status of HIV Screening.",
          "condition": [ {
            "kind": "applicability",
            "expression": {
              "description": "Determine if Patient is in screening population.",
              "language": "text/cql.identifier",
              "expression": "Risk Level Condition"
            }
          } ],
          "type": {
            "coding": [ {
              "system": "http://terminology.hl7.org/CodeSystem/plan-definition-type",
              "code": "create",
              "display": "Create"
            } ]
          },
          "selectionBehavior": "any",
          "definitionCanonical": "http://fhir.org/guides/nachc/hiv-cds/ActivityDefinition/activitydefinition-hiv-screening-request",
          "dynamicValue": [ {
            "path": "action.title",
            "expression": {
              "description": "Determines what recommendation patient should be provided.",
              "language": "text/cql.identifier",
              "expression": "Risk Level Recommendation"
            }
          }, {
            "path": "action.description",
            "expression": {
              "description": "Rationale for recommendation type.",
              "language": "text/cql.identifier",
              "expression": "Risk Level Rationale"
            }
          }, {
            "path": "action.extension",
            "expression": {
              "language": "text/cql.identifier",
              "expression": "Risk Level Indicator Status"
            }
          }, {
            "path": "asNeededBoolean",
            "expression": {
              "language": "text/cql.identifier",
              "expression": "Risk Level Condition"
            }
          } ],
          "action": [ {
            "description": "Will perform HIV screening"
          }, {
            "description": "Will not perform HIV screening at this time - Snooze 1 month."
          }, {
            "description": "Will not perform HIV screening at this time - Snooze 12 months."
          }, {
            "description": "Will not perform HIV screening at this time - patient declined."
          } ]
        }, {
          "title": "Exclusion from HIV Screening",
          "description": "Determines if patient was excluded from HIV Screening Recommendation.",
          "condition": [ {
            "kind": "applicability",
            "expression": {
              "description": "Determine if Patient is in hiv exclusion population.",
              "language": "text/cql.identifier",
              "expression": "Meets Exclusion Criteria"
            }
          } ],
          "dynamicValue": [ {
            "path": "action.description",
            "expression": {
              "description": "Rationale for why patient was excluded from the hiv screening.",
              "language": "text/cql.identifier",
              "expression": "Exclusion Reason"
            }
          }, {
            "path": "action.extension",
            "expression": {
              "language": "text/cql.identifier",
              "expression": "Info"
            }
          } ]
        } ]
      } ]
    },
    "request": {
      "method": "PUT",
      "url": "PlanDefinition/plandefinition-Screening"
    }
  }, {
    "resource": {
      "resourceType": "Condition",
      "id": "HighRiskSTDPatient-condition-hcv-1",
      "meta": {
        "profile": [ "http://fhir.org/guides/nachc/hiv-cds/StructureDefinition/hepatitis-c-diagnosis" ]
      },
      "clinicalStatus": {
        "coding": [ {
          "system": "http://terminology.hl7.org/CodeSystem/condition-clinical",
          "version": "0.5.0",
          "code": "active",
          "display": "Active"
        } ]
      },
      "verificationStatus": {
        "coding": [ {
          "system": "http://terminology.hl7.org/CodeSystem/condition-ver-status",
          "version": "0.5.0",
          "code": "confirmed",
          "display": "Confirmed"
        } ]
      },
      "category": [ {
        "coding": [ {
          "system": "http://terminology.hl7.org/ValueSet/condition-category",
          "version": "0.5.0",
          "code": "encounter-diagnosis",
          "display": "Encounter Diagnosis"
        } ]
      } ],
      "code": {
        "coding": [ {
          "system": "http://fhir.org/guides/nachc/hiv-cds/CodeSystem/hiv-custom",
          "code": "NACHC.B1.DE83",
          "display": "Chronic lymphocytic cholangitis-cholangiohepatitis (disorder)"
        }, {
          "system": "http://snomed.info/sct",
          "code": "9843006",
          "display": "Chronic lymphocytic cholangitis-cholangiohepatitis (disorder)"
        } ]
      },
      "subject": {
        "reference": "Patient/HighRiskSTDPatient"
      },
      "onsetDateTime": "2020-07-10T14:00:00-07:00",
      "abatementDateTime": "2021-07-10T14:00:00-07:00"
    },
    "request": {
      "method": "PUT",
      "url": "Condition/HighRiskSTDPatient-condition-hcv-1"
    }
  }, {
    "resource": {
      "resourceType": "Patient",
      "id": "ExclusionPatient",
      "meta": {
        "profile": [ "http://fhir.org/guides/nachc/hiv-cds/StructureDefinition/hiv-patient" ]
      },
      "extension": [ {
        "url": "http://fhir.org/guides/nachc/hiv-cds/StructureDefinition/sexualorientation",
        "extension": [ {
          "url": "Sexual Orientation",
          "valueCodeableConcept": {
            "coding": [ {
              "system": "http://fhir.org/guides/nachc/hiv-cds/CodeSystem/hiv-custom",
              "code": "NACHC.A0.DE49",
              "display": "Lesbian, gay or homosexual"
            }, {
              "system": "http://snomed.info/sct",
              "code": "38628009",
              "display": "Lesbian, gay or homosexual"
            } ]
          }
        } ]
      }, {
        "url": "http://fhir.org/guides/nachc/hiv-cds/StructureDefinition/genderidentity",
        "extension": [ {
          "url": "Gender Identity",
          "valueCodeableConcept": {
            "coding": [ {
              "system": "http://fhir.org/guides/nachc/hiv-cds/CodeSystem/hiv-custom",
              "code": "NACHC.A0.DE57",
              "display": "Female"
            }, {
              "system": "http://snomed.info/sct",
              "code": "446141000124107",
              "display": "Female"
            } ]
          }
        } ]
      } ],
      "identifier": [ {
        "use": "usual",
        "type": {
          "coding": [ {
            "system": "http://terminology.hl7.org/CodeSystem/v2-0203",
            "code": "MR"
          } ]
        },
        "system": "urn:oid:1.2.36.146.595.217.0.1",
        "value": "12345",
        "period": {
          "start": "2001-05-06"
        },
        "assigner": {
          "display": "Acme Healthcare"
        }
      } ],
      "active": true,
      "name": [ {
        "use": "official",
        "family": "Merryweather",
        "given": [ "Sally" ]
      } ],
      "gender": "female",
      "birthDate": "1994-11-22",
      "deceasedBoolean": false,
      "generalPractitioner": [ {
        "reference": "PractitionerRole/hiv-practitionerrole-example"
      } ]
    },
    "request": {
      "method": "PUT",
      "url": "Patient/ExclusionPatient"
    }
  }, {
    "resource": {
      "resourceType": "Observation",
      "id": "HighRiskPregnantPatient-observation-multiple-2",
      "meta": {
        "profile": [ "http://fhir.org/guides/nachc/hiv-cds/StructureDefinition/sexual-activity-number-of-partners" ]
      },
      "status": "preliminary",
      "code": {
        "coding": [ {
          "system": "http://fhir.org/guides/nachc/hiv-cds/CodeSystem/hiv-custom",
          "code": "NACHC.H1.DE15",
          "display": "Sexual Activity - Number of Partners"
        } ]
      },
      "subject": {
        "reference": "Patient/HighRiskPregnantPatient"
      },
      "encounter": {
        "reference": "Encounter/HighRiskSTDPatient-encounter-1"
      },
      "effectiveDateTime": "2021-07-30T10:30:00-07:00",
      "valueBoolean": true
    },
    "request": {
      "method": "PUT",
      "url": "Observation/HighRiskPregnantPatient-observation-multiple-2"
    }
  }, {
    "resource": {
      "resourceType": "Observation",
      "id": "HighRiskIDUPatient-observation-screening-1",
      "meta": {
        "profile": [ "http://fhir.org/guides/nachc/hiv-cds/StructureDefinition/hiv-test" ]
      },
      "status": "final",
      "code": {
        "coding": [ {
          "system": "http://fhir.org/guides/nachc/hiv-cds/CodeSystem/hiv-custom",
          "code": "NACHC.A2.DE1",
          "display": "HIV Test"
        } ]
      },
      "subject": {
        "reference": "Patient/HighRiskIDUPatient"
      },
      "encounter": {
        "reference": "Encounter/HighRiskIDUPatient-encounter-1"
      },
      "effectiveDateTime": "2021-03-08T10:00:00-07:00",
      "performer": [ {
        "reference": "PractitionerRole/hiv-practitionerrole-example"
      } ],
      "valueCodeableConcept": {
        "coding": [ {
          "system": "http://fhir.org/guides/nachc/hiv-cds/CodeSystem/hiv-custom",
          "code": "NACHC.A2.DE215",
          "display": "HIV proviral DNA [Presence] in Blood by Probe with amplification"
        }, {
          "system": "http://loinc.org",
          "code": "2898779",
          "display": "HIV proviral DNA [Presence] in Blood by Probe with amplification"
        } ]
      }
    },
    "request": {
      "method": "PUT",
      "url": "Observation/HighRiskIDUPatient-observation-screening-1"
    }
  }, {
    "resource": {
      "resourceType": "Observation",
      "id": "MSMPatient-observation-multiple-3",
      "meta": {
        "profile": [ "http://fhir.org/guides/nachc/hiv-cds/StructureDefinition/sexual-activity-partners-number-of-partners" ]
      },
      "status": "preliminary",
      "code": {
        "coding": [ {
          "system": "http://fhir.org/guides/nachc/hiv-cds/CodeSystem/hiv-custom",
          "code": "NACHC.H1.DE18",
          "display": "Sexual Activity - Partners Number of Partners"
        } ]
      },
      "subject": {
        "reference": "Patient/MSMPatient"
      },
      "encounter": {
        "reference": "Encounter/MSMPatient-encounter-1"
      },
      "effectiveDateTime": "2021-07-31T10:30:00-07:00",
      "valueBoolean": true
    },
    "request": {
      "method": "PUT",
      "url": "Observation/MSMPatient-observation-multiple-3"
    }
  }, {
    "resource": {
      "resourceType": "Patient",
      "id": "MSMPatient",
      "meta": {
        "profile": [ "http://fhir.org/guides/nachc/hiv-cds/StructureDefinition/hiv-patient" ]
      },
      "extension": [ {
        "url": "http://fhir.org/guides/nachc/hiv-cds/StructureDefinition/sexualorientation",
        "extension": [ {
          "url": "Sexual Orientation",
          "valueCodeableConcept": {
            "coding": [ {
              "system": "http://fhir.org/guides/nachc/hiv-cds/CodeSystem/hiv-custom",
              "code": "NACHC.A0.DE51",
              "display": "Bisexual"
            }, {
              "system": "http://snomed.info/sct",
              "code": "42035005",
              "display": "Bisexual"
            } ]
          }
        } ]
      }, {
        "url": "http://fhir.org/guides/nachc/hiv-cds/StructureDefinition/genderidentity",
        "extension": [ {
          "url": "Gender Identity",
          "valueCodeableConcept": {
            "coding": [ {
              "system": "http://fhir.org/guides/nachc/hiv-cds/CodeSystem/hiv-custom",
              "code": "NACHC.A0.DE59",
              "display": "Male-to-Female (MTF)/Transgender Female/Trans Woman"
            }, {
              "system": "http://snomed.info/sct",
              "code": "407376001",
              "display": "Male-to-Female (MTF)/Transgender Female/Trans Woman"
            } ]
          }
        } ]
      } ],
      "identifier": [ {
        "use": "usual",
        "type": {
          "coding": [ {
            "system": "http://terminology.hl7.org/CodeSystem/v2-0203",
            "code": "MR"
          } ]
        },
        "system": "urn:oid:1.2.36.146.595.217.0.1",
        "value": "12345",
        "period": {
          "start": "2001-05-06"
        },
        "assigner": {
          "display": "Acme Healthcare"
        }
      } ],
      "active": true,
      "name": [ {
        "use": "official",
        "family": "Kotic",
        "given": [ "Joe" ]
      } ],
      "gender": "male",
      "birthDate": "1972-06-09",
      "deceasedBoolean": false,
      "generalPractitioner": [ {
        "reference": "PractitionerRole/hiv-practitionerrole-example"
      } ]
    },
    "request": {
      "method": "PUT",
      "url": "Patient/MSMPatient"
    }
  }, {
    "resource": {
      "resourceType": "Encounter",
      "id": "HighRiskSTDPatient-encounter-1",
      "meta": {
        "profile": [ "http://fhir.org/guides/nachc/hiv-cds/StructureDefinition/patient-encounter" ]
      },
      "status": "in-progress",
      "class": {
        "system": "http://terminology.hl7.org/CodeSystem/v3-ActCode",
        "code": "AMB",
        "display": "ambulatory"
      },
      "type": [ {
        "coding": [ {
          "system": "http://fhir.org/guides/nachc/hiv-cds/CodeSystem/hiv-custom",
          "code": "NACHC.A0.DE2",
          "display": "Office or other outpatient visit for the evaluation and management of a new patient, which requires a medically appropriate history and/or examination and straightforward medical decision making. When using time for code selection, 15-29 minutes of total time is spent on the date of the encounter."
        }, {
          "system": "http://www.ama-assn.org/go/cpt",
          "code": "99202",
          "display": "Office or other outpatient visit for the evaluation and management of a new patient, which requires a medically appropriate history and/or examination and straightforward medical decision making. When using time for code selection, 15-29 minutes of total time is spent on the date of the encounter."
        } ]
      } ],
      "subject": {
        "reference": "Patient/HighRiskSTDPatient"
      },
      "period": {
        "start": "2021-07-08T10:00:00-07:00",
        "end": "2021-07-08T11:20:00-07:00"
      }
    },
    "request": {
      "method": "PUT",
      "url": "Encounter/HighRiskSTDPatient-encounter-1"
    }
  }, {
    "resource": {
      "resourceType": "Observation",
      "id": "HighRiskSTDPatient-observation-seeking-1",
      "meta": {
        "profile": [ "http://fhir.org/guides/nachc/hiv-cds/StructureDefinition/seeking-std-treatment" ]
      },
      "status": "preliminary",
      "code": {
        "coding": [ {
          "system": "http://fhir.org/guides/nachc/hiv-cds/CodeSystem/hiv-custom",
          "code": "NACHC.H1.DE9",
          "display": "Seeking STD Treatment"
        } ]
      },
      "subject": {
        "reference": "Patient/HighRiskSTDPatient"
      },
      "encounter": {
        "reference": "Encounter/HighRiskSTDPatient-encounter-1"
      },
      "effectiveDateTime": "2021-07-08T10:20:00-07:00",
      "valueBoolean": true
    },
    "request": {
      "method": "PUT",
      "url": "Observation/HighRiskSTDPatient-observation-seeking-1"
    }
  }, {
    "resource": {
      "resourceType": "Observation",
      "id": "DrugAbuseQuestionsPatient-observation-drug-abuse-question-1",
      "meta": {
        "profile": [ "http://fhir.org/guides/nachc/hiv-cds/StructureDefinition/hiv-test" ]
      },
      "status": "final",
      "code": {
        "coding": [ {
          "system": "http://fhir.org/guides/nachc/hiv-cds/CodeSystem/hiv-custom",
          "code": "NACHC.H2.DE2",
          "display": "Have you used drugs other than those required for medical reasons"
        } ]
      },
      "subject": {
        "reference": "Patient/DrugAbuseQuestionsPatient"
      },
      "encounter": {
        "reference": "Encounter/DrugAbuseQuestionsPatient-encounter-1"
      },
      "effectiveDateTime": "2021-03-08T10:00:00-07:00",
      "performer": [ {
        "reference": "PractitionerRole/hiv-practitionerrole-example"
      } ],
      "valueBoolean": true
    },
    "request": {
      "method": "PUT",
      "url": "Observation/DrugAbuseQuestionsPatient-observation-drug-abuse-question-1"
    }
  }, {
    "resource": {
      "resourceType": "Patient",
      "id": "InclusionPatient",
      "meta": {
        "profile": [ "http://fhir.org/guides/nachc/hiv-cds/StructureDefinition/hiv-patient" ]
      },
      "extension": [ {
        "url": "http://fhir.org/guides/nachc/hiv-cds/StructureDefinition/sexualorientation",
        "extension": [ {
          "url": "Sexual Orientation",
          "valueCodeableConcept": {
            "coding": [ {
              "system": "http://fhir.org/guides/nachc/hiv-cds/CodeSystem/hiv-custom",
              "code": "NACHC.A0.DE50",
              "display": "Straight or heterosexual"
            }, {
              "system": "http://snomed.info/sct",
              "code": "20430005",
              "display": "Straight or heterosexual"
            } ]
          }
        } ]
      }, {
        "url": "http://fhir.org/guides/nachc/hiv-cds/StructureDefinition/genderidentity",
        "extension": [ {
          "url": "Gender Identity",
          "valueCodeableConcept": {
            "coding": [ {
              "system": "http://fhir.org/guides/nachc/hiv-cds/CodeSystem/hiv-custom",
              "code": "NACHC.A0.DE56",
              "display": "Male"
            }, {
              "system": "http://snomed.info/sct",
              "code": "446151000124109",
              "display": "Male"
            } ]
          }
        } ]
      } ],
      "identifier": [ {
        "use": "usual",
        "type": {
          "coding": [ {
            "system": "http://terminology.hl7.org/CodeSystem/v2-0203",
            "code": "MR"
          } ]
        },
        "system": "urn:oid:1.2.36.146.595.217.0.1",
        "value": "12345",
        "period": {
          "start": "2001-05-06"
        },
        "assigner": {
          "display": "Acme Healthcare"
        }
      } ],
      "active": true,
      "name": [ {
        "use": "official",
        "family": "Chalmers",
        "given": [ "Peter", "James" ]
      }, {
        "use": "usual",
        "family": "Chalmers",
        "given": [ "Jim" ]
      }, {
        "use": "maiden",
        "family": "Windsor",
        "given": [ "Peter", "James" ],
        "period": {
          "end": "2002"
        }
      } ],
      "telecom": [ {
        "system": "phone",
        "value": "(03) 5555 6473",
        "use": "work",
        "rank": 1
      }, {
        "system": "phone",
        "value": "(03) 3410 5613",
        "use": "mobile",
        "rank": 2
      }, {
        "system": "phone",
        "value": "(03) 5555 8834",
        "use": "old",
        "period": {
          "end": "2014"
        }
      } ],
      "gender": "male",
      "birthDate": "1974-12-25",
      "deceasedBoolean": false,
      "address": [ {
        "use": "home",
        "type": "both",
        "text": "534 Erewhon St PeasantVille, Utah 84414",
        "line": [ "534 Erewhon St" ],
        "city": "PleasantVille",
        "district": "Rainbow",
        "state": "UT",
        "postalCode": "84414",
        "period": {
          "start": "1974-12-25"
        }
      } ],
      "contact": [ {
        "relationship": [ {
          "coding": [ {
            "system": "http://terminology.hl7.org/CodeSystem/v2-0131",
            "code": "N"
          } ]
        } ],
        "name": {
          "family": "du Marché",
          "_family": {
            "extension": [ {
              "url": "http://hl7.org/fhir/StructureDefinition/humanname-own-prefix",
              "valueString": "VV"
            } ]
          },
          "given": [ "Bénédicte" ]
        },
        "telecom": [ {
          "system": "phone",
          "value": "+33 (237) 998327"
        } ],
        "address": {
          "use": "home",
          "type": "both",
          "line": [ "534 Erewhon St" ],
          "city": "PleasantVille",
          "district": "Rainbow",
          "state": "VT",
          "postalCode": "3999",
          "period": {
            "start": "1974-12-25"
          }
        },
        "gender": "female",
        "period": {
          "start": "2012"
        }
      } ],
      "generalPractitioner": [ {
        "reference": "PractitionerRole/hiv-practitionerrole-example"
      } ],
      "managingOrganization": {
        "reference": "Organization/example"
      }
    },
    "request": {
      "method": "PUT",
      "url": "Patient/InclusionPatient"
    }
  }, {
    "resource": {
      "resourceType": "Observation",
      "id": "DrugAbuseQuestionsPatient-observation-drug-abuse-question-2",
      "meta": {
        "profile": [ "http://fhir.org/guides/nachc/hiv-cds/StructureDefinition/hiv-test" ]
      },
      "status": "final",
      "code": {
        "coding": [ {
          "system": "http://fhir.org/guides/nachc/hiv-cds/CodeSystem/hiv-custom",
          "code": "NACHC.H2.DE4",
          "display": "Do you use more than one drug at a time"
        } ]
      },
      "subject": {
        "reference": "Patient/DrugAbuseQuestionsPatient"
      },
      "encounter": {
        "reference": "Encounter/DrugAbuseQuestionsPatient-encounter-1"
      },
      "effectiveDateTime": "2021-03-08T10:00:00-07:00",
      "performer": [ {
        "reference": "PractitionerRole/hiv-practitionerrole-example"
      } ],
      "valueString": "Yes"
    },
    "request": {
      "method": "PUT",
      "url": "Observation/DrugAbuseQuestionsPatient-observation-drug-abuse-question-2"
    }
  }, {
    "resource": {
      "resourceType": "Patient",
      "id": "HighRiskIDUPatient",
      "meta": {
        "profile": [ "http://fhir.org/guides/nachc/hiv-cds/StructureDefinition/hiv-patient" ]
      },
      "extension": [ {
        "url": "http://fhir.org/guides/nachc/hiv-cds/StructureDefinition/sexualorientation",
        "extension": [ {
          "url": "Sexual Orientation",
          "valueCodeableConcept": {
            "coding": [ {
              "system": "http://fhir.org/guides/nachc/hiv-cds/CodeSystem/hiv-custom",
              "code": "NACHC.A0.DE49",
              "display": "Lesbian, gay or homosexual"
            }, {
              "system": "http://snomed.info/sct",
              "code": "38628009",
              "display": "Lesbian, gay or homosexual"
            } ]
          }
        } ]
      }, {
        "url": "http://fhir.org/guides/nachc/hiv-cds/StructureDefinition/genderidentity",
        "extension": [ {
          "url": "Gender Identity",
          "valueCodeableConcept": {
            "coding": [ {
              "system": "http://fhir.org/guides/nachc/hiv-cds/CodeSystem/hiv-custom",
              "code": "NACHC.A0.DE57",
              "display": "Female"
            }, {
              "system": "http://snomed.info/sct",
              "code": "446141000124107",
              "display": "Female"
            } ]
          }
        } ]
      } ],
      "identifier": [ {
        "use": "usual",
        "type": {
          "coding": [ {
            "system": "http://terminology.hl7.org/CodeSystem/v2-0203",
            "code": "MR"
          } ]
        },
        "system": "urn:oid:1.2.36.146.595.217.0.1",
        "value": "12345",
        "period": {
          "start": "2001-05-06"
        },
        "assigner": {
          "display": "Acme Healthcare"
        }
      } ],
      "active": true,
      "name": [ {
        "use": "official",
        "family": "Madelyn",
        "given": [ "Ashley" ]
      } ],
      "gender": "female",
      "birthDate": "2002-02-02",
      "deceasedBoolean": false,
      "generalPractitioner": [ {
        "reference": "PractitionerRole/hiv-practitionerrole-example"
      } ]
    },
    "request": {
      "method": "PUT",
      "url": "Patient/HighRiskIDUPatient"
    }
  }, {
    "resource": {
      "resourceType": "Observation",
      "id": "DrugAbuseScreeningPatient-observation-drug-screening-1",
      "meta": {
        "profile": [ "http://fhir.org/guides/nachc/hiv-cds/StructureDefinition/hiv-test" ]
      },
      "status": "preliminary",
      "code": {
        "coding": [ {
          "system": "http://fhir.org/guides/nachc/hiv-cds/CodeSystem/hiv-custom",
          "code": "NACHC.A0.DE65",
          "display": "Total score [DAST-10]"
        } ]
      },
      "subject": {
        "reference": "Patient/DrugAbuseScreeningPatient"
      },
      "encounter": {
        "reference": "Encounter/DrugAbuseScreeningPatient-encounter-1"
      },
      "effectiveDateTime": "2021-03-08T10:20:00-07:00",
      "valueInteger": 10
    },
    "request": {
      "method": "PUT",
      "url": "Observation/DrugAbuseScreeningPatient-observation-drug-screening-1"
    }
  }, {
    "resource": {
      "resourceType": "Patient",
      "id": "HighRiskSTDPatient",
      "meta": {
        "profile": [ "http://fhir.org/guides/nachc/hiv-cds/StructureDefinition/hiv-patient" ]
      },
      "extension": [ {
        "url": "http://fhir.org/guides/nachc/hiv-cds/StructureDefinition/sexualorientation",
        "extension": [ {
          "url": "Sexual Orientation",
          "valueCodeableConcept": {
            "coding": [ {
              "system": "http://fhir.org/guides/nachc/hiv-cds/CodeSystem/hiv-custom",
              "code": "NACHC.A0.DE50",
              "display": "Straight or heterosexual"
            }, {
              "system": "http://snomed.info/sct",
              "code": "20430005",
              "display": "Straight or heterosexual"
            } ]
          }
        } ]
      }, {
        "url": "http://fhir.org/guides/nachc/hiv-cds/StructureDefinition/genderidentity",
        "extension": [ {
          "url": "Gender Identity",
          "valueCodeableConcept": {
            "coding": [ {
              "system": "http://fhir.org/guides/nachc/hiv-cds/CodeSystem/hiv-custom",
              "code": "NACHC.A0.DE56",
              "display": "Male"
            }, {
              "system": "http://snomed.info/sct",
              "code": "446151000124109",
              "display": "Male"
            } ]
          }
        } ]
      } ],
      "identifier": [ {
        "use": "usual",
        "type": {
          "coding": [ {
            "system": "http://terminology.hl7.org/CodeSystem/v2-0203",
            "code": "MR"
          } ]
        },
        "system": "urn:oid:1.2.36.146.595.217.0.1",
        "value": "12345",
        "period": {
          "start": "2001-05-06"
        },
        "assigner": {
          "display": "Acme Healthcare"
        }
      } ],
      "active": true,
      "name": [ {
        "use": "official",
        "family": "Jones",
        "given": [ "John" ]
      } ],
      "gender": "male",
      "birthDate": "1982-08-08",
      "deceasedBoolean": false,
      "generalPractitioner": [ {
        "reference": "PractitionerRole/hiv-practitionerrole-example"
      } ]
    },
    "request": {
      "method": "PUT",
      "url": "Patient/HighRiskSTDPatient"
    }
  }, {
    "resource": {
      "resourceType": "Library",
      "id": "Screening",
      "extension": [ {
        "url": "http://hl7.org/fhir/us/cqfmeasures/StructureDefinition/cqfm-softwaresystem",
        "valueReference": {
          "reference": "Device/cqf-tooling"
        }
      } ],
      "url": "http://fhir.org/guides/nachc/hiv-cds/Library/Screening",
      "name": "Screening",
      "title": "Library - HIV Screening",
      "type": {
        "coding": [ {
          "system": "http://hl7.org/fhir/ValueSet/library-type",
          "version": "4.0.1",
          "code": "logic-library",
          "display": "Logic Library"
        } ]
      },
      "subjectCodeableConcept": {
        "coding": [ {
          "system": "http://hl7.org/fhir/ValueSet/subject-type",
          "version": "4.0.1",
          "code": "Patient",
          "display": "Patient"
        } ]
      },
      "date": "2021-05-12T00:00:00-07:00",
      "publisher": "National Association of Community Health Centers, Inc. (NACHC)",
      "contact": [ {
        "telecom": [ {
          "system": "url",
          "value": "https://www.nachc.org/"
        } ]
      } ],
      "description": "Logic library for implementation of the CDC HIV Screening Recommendation.",
      "useContext": [ {
        "code": {
          "system": "http://hl7.org/fhir/usage-context-type",
          "version": "4.0.1",
          "code": "focus",
          "display": "Clinical Focus"
        },
        "valueCodeableConcept": {
          "coding": [ {
            "system": "http://hl7.org/fhir/sid/icd-10-cm",
            "version": "2021",
            "code": "B20",
            "display": "Human immunodeficiency virus [HIV] disease"
          } ]
        }
      } ],
      "jurisdiction": [ {
        "coding": [ {
          "system": "http://hl7.org/fhir/ValueSet/iso3166-1-3",
          "version": "4.0.1",
          "code": "USA",
          "display": "United States of America"
        } ]
      } ],
      "purpose": "The purpose of this is to implement a Clinical Decision Support Workflow via CDS-Hooks to establish the CDC's HIV Screening Recommendation.",
      "usage": "This is to be used in conjunction with a patient-facing FHIR application.",
      "copyright": "© Copyright National Association of Community Health Centers, Inc. (NACHC) 2021+.",
      "topic": [ {
        "coding": [ {
          "system": "http://hl7.org/fhir/ValueSet/definition-topic",
          "version": "4.0.1",
          "code": "assessment",
          "display": "Assessment"
        } ],
        "text": "HIV Management"
      } ],
      "content": [ {
        "contentType": "text/cql",
        "data": ""
      } ]
    },
    "request": {
      "method": "PUT",
      "url": "Library/Screening"
    }
  }, {
    "resource": {
      "resourceType": "Patient",
      "id": "DrugAbuseScreeningPatient",
      "meta": {
        "profile": [ "http://fhir.org/guides/nachc/hiv-cds/StructureDefinition/hiv-patient" ]
      },
      "extension": [ {
        "url": "http://fhir.org/guides/nachc/hiv-cds/StructureDefinition/sexualorientation",
        "extension": [ {
          "url": "Sexual Orientation",
          "valueCodeableConcept": {
            "coding": [ {
              "system": "http://fhir.org/guides/nachc/hiv-cds/CodeSystem/hiv-custom",
              "code": "NACHC.A0.DE49",
              "display": "Lesbian, gay or homosexual"
            }, {
              "system": "http://snomed.info/sct",
              "code": "38628009",
              "display": "Lesbian, gay or homosexual"
            } ]
          }
        } ]
      }, {
        "url": "http://fhir.org/guides/nachc/hiv-cds/StructureDefinition/genderidentity",
        "extension": [ {
          "url": "Gender Identity",
          "valueCodeableConcept": {
            "coding": [ {
              "system": "http://fhir.org/guides/nachc/hiv-cds/CodeSystem/hiv-custom",
              "code": "NACHC.A0.DE57",
              "display": "Female"
            }, {
              "system": "http://snomed.info/sct",
              "code": "446141000124107",
              "display": "Female"
            } ]
          }
        } ]
      } ],
      "identifier": [ {
        "use": "usual",
        "type": {
          "coding": [ {
            "system": "http://terminology.hl7.org/CodeSystem/v2-0203",
            "code": "MR"
          } ]
        },
        "system": "urn:oid:1.2.36.146.595.217.0.1",
        "value": "12345",
        "period": {
          "start": "2001-05-06"
        },
        "assigner": {
          "display": "Acme Healthcare"
        }
      } ],
      "active": true,
      "name": [ {
        "use": "official",
        "family": "Madelyn",
        "given": [ "Ashley" ]
      } ],
      "gender": "female",
      "birthDate": "2002-02-02",
      "deceasedBoolean": false,
      "generalPractitioner": [ {
        "reference": "PractitionerRole/hiv-practitionerrole-example"
      } ]
    },
    "request": {
      "method": "PUT",
      "url": "Patient/DrugAbuseScreeningPatient"
    }
  }, {
    "resource": {
      "resourceType": "Encounter",
      "id": "ExclusionPatient-encounter-1",
      "meta": {
        "profile": [ "http://fhir.org/guides/nachc/hiv-cds/StructureDefinition/patient-encounter" ]
      },
      "status": "in-progress",
      "class": {
        "system": "http://terminology.hl7.org/CodeSystem/v3-ActCode",
        "code": "AMB",
        "display": "ambulatory"
      },
      "type": [ {
        "coding": [ {
          "system": "http://fhir.org/guides/nachc/hiv-cds/CodeSystem/hiv-custom",
          "code": "NACHC.A0.DE2",
          "display": "Office or other outpatient visit for the evaluation and management of a new patient, which requires a medically appropriate history and/or examination and straightforward medical decision making. When using time for code selection, 15-29 minutes of total time is spent on the date of the encounter."
        }, {
          "system": "http://www.ama-assn.org/go/cpt",
          "code": "99202",
          "display": "Office or other outpatient visit for the evaluation and management of a new patient, which requires a medically appropriate history and/or examination and straightforward medical decision making. When using time for code selection, 15-29 minutes of total time is spent on the date of the encounter."
        } ]
      } ],
      "subject": {
        "reference": "Patient/ExclusionPatient"
      },
      "period": {
        "start": "2021-05-10T14:00:00-07:00",
        "end": "2021-05-10T15:20:00-07:00"
      }
    },
    "request": {
      "method": "PUT",
      "url": "Encounter/ExclusionPatient-encounter-1"
    }
  }, {
    "resource": {
      "resourceType": "Observation",
      "id": "DrugAbuseQuestionsPatient-observation-screening-1",
      "meta": {
        "profile": [ "http://fhir.org/guides/nachc/hiv-cds/StructureDefinition/hiv-test" ]
      },
      "status": "final",
      "code": {
        "coding": [ {
          "system": "http://fhir.org/guides/nachc/hiv-cds/CodeSystem/hiv-custom",
          "code": "NACHC.A2.DE1",
          "display": "HIV Test"
        } ]
      },
      "subject": {
        "reference": "Patient/DrugAbuseQuestionsPatient"
      },
      "encounter": {
        "reference": "Encounter/DrugAbuseQuestionsPatient-encounter-1"
      },
      "effectiveDateTime": "2021-03-08T10:00:00-07:00",
      "performer": [ {
        "reference": "PractitionerRole/hiv-practitionerrole-example"
      } ],
      "valueCodeableConcept": {
        "coding": [ {
          "system": "http://fhir.org/guides/nachc/hiv-cds/CodeSystem/hiv-custom",
          "code": "NACHC.A2.DE215",
          "display": "HIV proviral DNA [Presence] in Blood by Probe with amplification"
        }, {
          "system": "http://loinc.org",
          "code": "2898779",
          "display": "HIV proviral DNA [Presence] in Blood by Probe with amplification"
        } ]
      }
    },
    "request": {
      "method": "PUT",
      "url": "Observation/DrugAbuseQuestionsPatient-observation-screening-1"
    }
  }, {
    "resource": {
      "resourceType": "Encounter",
      "id": "HighRiskIDUPatient-encounter-1",
      "meta": {
        "profile": [ "http://fhir.org/guides/nachc/hiv-cds/StructureDefinition/patient-encounter" ]
      },
      "status": "in-progress",
      "class": {
        "system": "http://terminology.hl7.org/CodeSystem/v3-ActCode",
        "code": "AMB",
        "display": "ambulatory"
      },
      "type": [ {
        "coding": [ {
          "system": "http://fhir.org/guides/nachc/hiv-cds/CodeSystem/hiv-custom",
          "code": "NACHC.A0.DE2",
          "display": "Office or other outpatient visit for the evaluation and management of a new patient, which requires a medically appropriate history and/or examination and straightforward medical decision making. When using time for code selection, 15-29 minutes of total time is spent on the date of the encounter."
        }, {
          "system": "http://www.ama-assn.org/go/cpt",
          "code": "99202",
          "display": "Office or other outpatient visit for the evaluation and management of a new patient, which requires a medically appropriate history and/or examination and straightforward medical decision making. When using time for code selection, 15-29 minutes of total time is spent on the date of the encounter."
        } ]
      } ],
      "subject": {
        "reference": "Patient/HighRiskIDUPatient"
      },
      "period": {
        "start": "2021-07-08T08:00:00-07:00",
        "end": "2021-07-08T09:20:00-07:00"
      }
    },
    "request": {
      "method": "PUT",
      "url": "Encounter/HighRiskIDUPatient-encounter-1"
    }
  }, {
    "resource": {
      "resourceType": "Condition",
      "id": "HighRiskPregnantPatient-condition-pregnant-1",
      "meta": {
        "profile": [ "http://fhir.org/guides/nachc/hiv-cds/StructureDefinition/pregnancy-conditions" ]
      },
      "clinicalStatus": {
        "coding": [ {
          "system": "http://terminology.hl7.org/CodeSystem/condition-clinical",
          "version": "0.5.0",
          "code": "active",
          "display": "Active"
        } ]
      },
      "verificationStatus": {
        "coding": [ {
          "system": "http://terminology.hl7.org/CodeSystem/condition-ver-status",
          "version": "0.5.0",
          "code": "confirmed",
          "display": "Confirmed"
        } ]
      },
      "category": [ {
        "coding": [ {
          "system": "http://terminology.hl7.org/ValueSet/condition-category",
          "version": "0.5.0",
          "code": "encounter-diagnosis",
          "display": "Encounter Diagnosis"
        } ]
      } ],
      "code": {
        "coding": [ {
          "system": "http://fhir.org/guides/nachc/hiv-cds/CodeSystem/hiv-custom",
          "code": "NACHC.F2.DE1132",
          "display": "Obstetrical tetanus"
        }, {
          "system": "http://hl7.org/fhir/sid/icd-10",
          "code": "A34",
          "display": "Obstetrical tetanus"
        } ]
      },
      "subject": {
        "reference": "Patient/HighRiskPregnantPatient"
      },
      "onsetDateTime": "2021-01-10T12:00:00-07:00"
    },
    "request": {
      "method": "PUT",
      "url": "Condition/HighRiskPregnantPatient-condition-pregnant-1"
    }
  }, {
    "resource": {
      "resourceType": "Observation",
      "id": "DrugAbuseScreeningPatient-observation-screening-1",
      "meta": {
        "profile": [ "http://fhir.org/guides/nachc/hiv-cds/StructureDefinition/hiv-test" ]
      },
      "status": "final",
      "code": {
        "coding": [ {
          "system": "http://fhir.org/guides/nachc/hiv-cds/CodeSystem/hiv-custom",
          "code": "NACHC.A2.DE1",
          "display": "HIV Test"
        } ]
      },
      "subject": {
        "reference": "Patient/DrugAbuseScreeningPatient"
      },
      "encounter": {
        "reference": "Encounter/DrugAbuseScreeningPatient-encounter-1"
      },
      "effectiveDateTime": "2021-01-08T10:00:00-07:00",
      "performer": [ {
        "reference": "PractitionerRole/hiv-practitionerrole-example"
      } ],
      "valueCodeableConcept": {
        "coding": [ {
          "system": "http://fhir.org/guides/nachc/hiv-cds/CodeSystem/hiv-custom",
          "code": "NACHC.A2.DE215",
          "display": "HIV proviral DNA [Presence] in Blood by Probe with amplification"
        }, {
          "system": "http://loinc.org",
          "code": "2898779",
          "display": "HIV proviral DNA [Presence] in Blood by Probe with amplification"
        } ]
      }
    },
    "request": {
      "method": "PUT",
      "url": "Observation/DrugAbuseScreeningPatient-observation-screening-1"
    }
  }, {
    "resource": {
      "resourceType": "Observation",
      "id": "MSMPatient-observation-screening-1",
      "meta": {
        "profile": [ "http://fhir.org/guides/nachc/hiv-cds/StructureDefinition/hiv-test" ]
      },
      "status": "final",
      "code": {
        "coding": [ {
          "system": "http://fhir.org/guides/nachc/hiv-cds/CodeSystem/hiv-custom",
          "code": "NACHC.A2.DE1",
          "display": "HIV Test"
        } ]
      },
      "subject": {
        "reference": "Patient/MSMPatient"
      },
      "effectiveDateTime": "2020-06-08T10:20:00-07:00",
      "valueCodeableConcept": {
        "coding": [ {
          "system": "http://fhir.org/guides/nachc/hiv-cds/CodeSystem/hiv-custom",
          "code": "NACHC.A2.DE200",
          "display": "HIV 1 RNA [Presence] in Serum or Plasma by NAA with probe detection"
        }, {
          "system": "http://loinc.org",
          "code": "25835-0",
          "display": "HIV 1 RNA [Presence] in Serum or Plasma by NAA with probe detection"
        } ]
      }
    },
    "request": {
      "method": "PUT",
      "url": "Observation/MSMPatient-observation-screening-1"
    }
  }, {
    "resource": {
      "resourceType": "Patient",
      "id": "HighRiskPregnantPatient",
      "meta": {
        "profile": [ "http://fhir.org/guides/nachc/hiv-cds/StructureDefinition/hiv-patient" ]
      },
      "extension": [ {
        "url": "http://fhir.org/guides/nachc/hiv-cds/StructureDefinition/sexualorientation",
        "extension": [ {
          "url": "Sexual Orientation",
          "valueCodeableConcept": {
            "coding": [ {
              "system": "http://fhir.org/guides/nachc/hiv-cds/CodeSystem/hiv-custom",
              "code": "NACHC.A0.DE50",
              "display": "Straight or heterosexual"
            }, {
              "system": "http://snomed.info/sct",
              "code": "20430005",
              "display": "Straight or heterosexual"
            } ]
          }
        } ]
      }, {
        "url": "http://fhir.org/guides/nachc/hiv-cds/StructureDefinition/genderidentity",
        "extension": [ {
          "url": "Gender Identity",
          "valueCodeableConcept": {
            "coding": [ {
              "system": "http://fhir.org/guides/nachc/hiv-cds/CodeSystem/hiv-custom",
              "code": "NACHC.A0.DE57",
              "display": "Female"
            }, {
              "system": "http://snomed.info/sct",
              "code": "446141000124107",
              "display": "Female"
            } ]
          }
        } ]
      } ],
      "identifier": [ {
        "use": "usual",
        "type": {
          "coding": [ {
            "system": "http://terminology.hl7.org/CodeSystem/v2-0203",
            "code": "MR"
          } ]
        },
        "system": "urn:oid:1.2.36.146.595.217.0.1",
        "value": "12345",
        "period": {
          "start": "2001-05-06"
        },
        "assigner": {
          "display": "Acme Healthcare"
        }
      } ],
      "active": true,
      "name": [ {
        "use": "official",
        "family": "Coraline",
        "given": [ "Beatrix" ]
      } ],
      "gender": "female",
      "birthDate": "1989-01-12",
      "deceasedBoolean": false,
      "generalPractitioner": [ {
        "reference": "PractitionerRole/hiv-practitionerrole-example"
      } ]
    },
    "request": {
      "method": "PUT",
      "url": "Patient/HighRiskPregnantPatient"
    }
  }, {
    "resource": {
      "resourceType": "Condition",
      "id": "HighRiskIDUPatient-condition-hcv-1",
      "meta": {
        "profile": [ "http://fhir.org/guides/nachc/hiv-cds/StructureDefinition/hepatitis-c-diagnosis" ]
      },
      "clinicalStatus": {
        "coding": [ {
          "system": "http://terminology.hl7.org/CodeSystem/condition-clinical",
          "version": "0.5.0",
          "code": "active",
          "display": "Active"
        } ]
      },
      "verificationStatus": {
        "coding": [ {
          "system": "http://terminology.hl7.org/CodeSystem/condition-ver-status",
          "version": "0.5.0",
          "code": "confirmed",
          "display": "Confirmed"
        } ]
      },
      "category": [ {
        "coding": [ {
          "system": "http://terminology.hl7.org/ValueSet/condition-category",
          "version": "0.5.0",
          "code": "encounter-diagnosis",
          "display": "Encounter Diagnosis"
        } ]
      } ],
      "code": {
        "coding": [ {
          "system": "http://fhir.org/guides/nachc/hiv-cds/CodeSystem/hiv-custom",
          "code": "NACHC.F1.DE16",
          "display": "Streptococcal sepsis"
        }, {
          "system": "http://hl7.org/fhir/sid/icd-10",
          "code": "A40",
          "display": "Streptococcal sepsis"
        } ]
      },
      "subject": {
        "reference": "Patient/HighRiskIDUPatient"
      },
      "onsetDateTime": "2018-07-10T14:00:00-07:00"
    },
    "request": {
      "method": "PUT",
      "url": "Condition/HighRiskIDUPatient-condition-hcv-1"
    }
  }, {
    "resource": {
      "resourceType": "Observation",
      "id": "HighRiskSTDPatient-observation-screening-1",
      "meta": {
        "profile": [ "http://fhir.org/guides/nachc/hiv-cds/StructureDefinition/hiv-test" ]
      },
      "status": "final",
      "code": {
        "coding": [ {
          "system": "http://fhir.org/guides/nachc/hiv-cds/CodeSystem/hiv-custom",
          "code": "NACHC.A2.DE1",
          "display": "HIV Test"
        } ]
      },
      "subject": {
        "reference": "Patient/HighRiskSTDPatient"
      },
      "encounter": {
        "reference": "Encounter/HighRiskSTDPatient-encounter-1"
      },
      "effectiveDateTime": "2021-03-08T10:00:00-07:00",
      "performer": [ {
        "reference": "PractitionerRole/hiv-practitionerrole-example"
      } ],
      "valueCodeableConcept": {
        "coding": [ {
          "system": "http://fhir.org/guides/nachc/hiv-cds/CodeSystem/hiv-custom",
          "code": "NACHC.A2.DE215",
          "display": "HIV proviral DNA [Presence] in Blood by Probe with amplification"
        }, {
          "system": "http://loinc.org",
          "code": "2898779",
          "display": "HIV proviral DNA [Presence] in Blood by Probe with amplification"
        } ]
      }
    },
    "request": {
      "method": "PUT",
      "url": "Observation/HighRiskSTDPatient-observation-screening-1"
    }
  }, {
    "resource": {
      "resourceType": "Encounter",
      "id": "DrugAbuseScreeningPatient-encounter-1",
      "meta": {
        "profile": [ "http://fhir.org/guides/nachc/hiv-cds/StructureDefinition/patient-encounter" ]
      },
      "status": "in-progress",
      "class": {
        "system": "http://terminology.hl7.org/CodeSystem/v3-ActCode",
        "code": "AMB",
        "display": "ambulatory"
      },
      "type": [ {
        "coding": [ {
          "system": "http://fhir.org/guides/nachc/hiv-cds/CodeSystem/hiv-custom",
          "code": "NACHC.A0.DE2",
          "display": "Office or other outpatient visit for the evaluation and management of a new patient, which requires a medically appropriate history and/or examination and straightforward medical decision making. When using time for code selection, 15-29 minutes of total time is spent on the date of the encounter."
        }, {
          "system": "http://www.ama-assn.org/go/cpt",
          "code": "99202",
          "display": "Office or other outpatient visit for the evaluation and management of a new patient, which requires a medically appropriate history and/or examination and straightforward medical decision making. When using time for code selection, 15-29 minutes of total time is spent on the date of the encounter."
        } ]
      } ],
      "subject": {
        "reference": "Patient/DrugAbuseScreeningPatient"
      },
      "period": {
        "start": "2021-05-10T14:00:00-07:00",
        "end": "2021-05-10T15:20:00-07:00"
      }
    },
    "request": {
      "method": "PUT",
      "url": "Encounter/DrugAbuseScreeningPatient-encounter-1"
    }
  }, {
    "resource": {
      "resourceType": "Condition",
      "id": "ExclusionPatient-condition-hiv-1",
      "meta": {
        "profile": [ "http://fhir.org/guides/nachc/hiv-cds/StructureDefinition/hiv-diagnosis" ]
      },
      "clinicalStatus": {
        "coding": [ {
          "system": "http://terminology.hl7.org/CodeSystem/condition-clinical",
          "version": "0.5.0",
          "code": "active",
          "display": "Active"
        } ]
      },
      "verificationStatus": {
        "coding": [ {
          "system": "http://terminology.hl7.org/CodeSystem/condition-ver-status",
          "version": "0.5.0",
          "code": "confirmed",
          "display": "Confirmed"
        } ]
      },
      "category": [ {
        "coding": [ {
          "system": "http://terminology.hl7.org/ValueSet/condition-category",
          "version": "0.5.0",
          "code": "encounter-diagnosis",
          "display": "Encounter Diagnosis"
        } ]
      } ],
      "code": {
        "coding": [ {
          "system": "http://fhir.org/guides/nachc/hiv-cds/CodeSystem/hiv-custom",
          "code": "NACHC.A1.DE2",
          "display": "Acquired hemolytic anemia co-occurrent with human immunodeficiency virus infection (disorder)"
        }, {
          "system": "http://snomed.info/sct",
          "code": "713533000",
          "display": "Acquired hemolytic anemia co-occurrent with human immunodeficiency virus infection (disorder)"
        } ]
      },
      "subject": {
        "reference": "Patient/ExclusionPatient"
      },
      "onsetDateTime": "2014-01-10T14:00:00-07:00",
      "abatementDateTime": "2021-07-10T14:00:00-07:00"
    },
    "request": {
      "method": "PUT",
      "url": "Condition/ExclusionPatient-condition-hiv-1"
    }
  }, {
    "resource": {
      "resourceType": "Patient",
      "id": "DrugAbuseQuestionsPatient",
      "meta": {
        "profile": [ "http://fhir.org/guides/nachc/hiv-cds/StructureDefinition/hiv-patient" ]
      },
      "extension": [ {
        "url": "http://fhir.org/guides/nachc/hiv-cds/StructureDefinition/sexualorientation",
        "extension": [ {
          "url": "Sexual Orientation",
          "valueCodeableConcept": {
            "coding": [ {
              "system": "http://fhir.org/guides/nachc/hiv-cds/CodeSystem/hiv-custom",
              "code": "NACHC.A0.DE49",
              "display": "Lesbian, gay or homosexual"
            }, {
              "system": "http://snomed.info/sct",
              "code": "38628009",
              "display": "Lesbian, gay or homosexual"
            } ]
          }
        } ]
      }, {
        "url": "http://fhir.org/guides/nachc/hiv-cds/StructureDefinition/genderidentity",
        "extension": [ {
          "url": "Gender Identity",
          "valueCodeableConcept": {
            "coding": [ {
              "system": "http://fhir.org/guides/nachc/hiv-cds/CodeSystem/hiv-custom",
              "code": "NACHC.A0.DE57",
              "display": "Female"
            }, {
              "system": "http://snomed.info/sct",
              "code": "446141000124107",
              "display": "Female"
            } ]
          }
        } ]
      } ],
      "identifier": [ {
        "use": "usual",
        "type": {
          "coding": [ {
            "system": "http://terminology.hl7.org/CodeSystem/v2-0203",
            "code": "MR"
          } ]
        },
        "system": "urn:oid:1.2.36.146.595.217.0.1",
        "value": "12345",
        "period": {
          "start": "2001-05-06"
        },
        "assigner": {
          "display": "Acme Healthcare"
        }
      } ],
      "active": true,
      "name": [ {
        "use": "official",
        "family": "Madelyn",
        "given": [ "Ashley" ]
      } ],
      "gender": "female",
      "birthDate": "2002-02-02",
      "deceasedBoolean": false,
      "generalPractitioner": [ {
        "reference": "PractitionerRole/hiv-practitionerrole-example"
      } ]
    },
    "request": {
      "method": "PUT",
      "url": "Patient/DrugAbuseQuestionsPatient"
    }
  } ]
}